Folder: Dasgroupta/XPS/CuOx/Cu_LMM_2

Note: XPS/CuOx/Cu_LMM_2/Cu2O_LMM.TXT
C:\Users\Orlando\Documents\Postdoctoral_Work\Data\MC2_XPS_Oct2018\overlay of cu lmm auger peaks.vms
Cu2O Cu LMM
	Characteristic Energy eV	1486.71	Acquisition Time s	18
KE_Cu2O Cu LMM	BE_Cu2O Cu LMM	CPS_Cu2O Cu LMM	Background_Cu2O Cu LMM
903.75	582.96	3488.78	3488.78
903.85	582.86	3515.5	3515.5
903.95	582.76	3500.11	3500.11
904.05	582.66	3505.67	3505.67
904.15	582.56	3495.06	3495.06
904.25	582.46	3490.83	3490.83
904.35	582.36	3478.39	3478.39
904.45	582.26	3487.44	3487.44
904.55	582.16	3480.39	3480.39
904.65	582.06	3501.22	3501.22
904.75	581.96	3483.22	3483.22
904.85	581.86	3473.44	3473.44
904.95	581.76	3484.89	3484.89
905.05	581.66	3487.56	3487.56
905.15	581.56	3498.28	3498.28
905.25	581.46	3472.17	3472.17
905.35	581.36	3459.72	3459.72
905.45	581.26	3457.67	3457.67
905.55	581.16	3451.06	3451.06
905.65	581.06	3462.5	3462.5
905.75	580.96	3465.61	3465.61
905.85	580.86	3482.28	3482.28
905.95	580.76	3457.61	3457.61
906.05	580.66	3467.44	3467.44
906.15	580.56	3457.78	3457.78
906.25	580.46	3466.94	3466.94
906.35	580.36	3458.67	3458.67
906.45	580.26	3466.22	3466.22
906.55	580.16	3486.17	3486.17
906.65	580.06	3502.94	3502.94
906.75	579.96	3495.28	3495.28
906.85	579.86	3467.06	3467.06
906.95	579.76	3489.22	3489.22
907.05	579.66	3474.06	3474.06
907.15	579.56	3486	3486
907.25	579.46	3490.56	3490.56
907.35	579.36	3486	3486
907.45	579.26	3468.11	3468.11
907.55	579.16	3487	3487
907.65	579.06	3485.5	3485.5
907.75	578.96	3460.72	3460.72
907.85	578.86	3495.67	3495.67
907.95	578.76	3477.28	3477.28
908.05	578.66	3478.11	3478.11
908.15	578.56	3483.83	3483.83
908.25	578.46	3474.56	3474.56
908.35	578.36	3492	3492
908.45	578.26	3494.28	3494.28
908.55	578.16	3486.33	3486.33
908.65	578.06	3491.83	3491.83
908.75	577.96	3494.5	3494.5
908.85	577.86	3478.56	3478.56
908.95	577.76	3471.11	3471.11
909.05	577.66	3489	3489
909.15	577.56	3506.39	3506.39
909.25	577.46	3522.78	3522.78
909.35	577.36	3519.44	3519.44
909.45	577.26	3539.5	3539.5
909.55	577.16	3523.78	3523.78
909.65	577.06	3553.61	3553.61
909.75	576.96	3539.5	3539.5
909.85	576.86	3551.83	3551.83
909.95	576.76	3581.17	3581.17
910.05	576.66	3584.72	3584.72
910.15	576.56	3590.61	3590.61
910.25	576.46	3610.56	3610.56
910.35	576.36	3612.33	3612.33
910.45	576.26	3618.44	3618.44
910.55	576.16	3625.06	3625.06
910.65	576.06	3637.33	3637.33
910.75	575.96	3659.56	3659.56
910.85	575.86	3686.22	3686.22
910.95	575.76	3695.94	3695.94
911.05	575.66	3685.39	3685.39
911.15	575.56	3713.83	3713.83
911.25	575.46	3723.72	3723.72
911.35	575.36	3723.44	3723.44
911.45	575.26	3719.61	3719.61
911.55	575.16	3747.17	3747.17
911.65	575.06	3739.06	3739.06
911.75	574.96	3742.39	3742.39
911.85	574.86	3769.44	3769.44
911.95	574.76	3792.61	3792.61
912.05	574.66	3796.83	3796.83
912.15	574.56	3809.39	3809.39
912.25	574.46	3811.61	3811.61
912.35	574.36	3841.06	3841.06
912.45	574.26	3835.06	3835.06
912.55	574.16	3850.61	3850.61
912.65	574.06	3861.44	3861.44
912.75	573.

Note: XPS/CuOx/Cu_LMM_2/Cu_Metal_LMM.TXT
C:\Users\Orlando\Documents\Postdoctoral_Work\Data\MC2_XPS_Oct2018\overlay of cu lmm auger peaks.vms
Cu Metal Cu LMM
	Characteristic Energy eV	1486.71	Acquisition Time s	1.5
KE_Cu Metal Cu LMM	BE_Cu Metal Cu LMM	CPS_Cu Metal Cu LMM	Background_Cu Metal Cu LMM
906.71	580	13431.3	13431.3
906.76	579.95	13404	13404
906.81	579.9	13612	13612
906.86	579.85	13645.3	13645.3
906.91	579.8	13689.3	13689.3
906.96	579.75	13703.3	13703.3
907.01	579.7	13740	13740
907.06	579.65	13702	13702
907.11	579.6	13836.7	13836.7
907.16	579.55	13762	13762
907.21	579.5	13661.3	13661.3
907.26	579.45	13794.7	13794.7
907.31	579.4	14016	14016
907.36	579.35	14000.7	14000.7
907.41	579.3	14107.3	14107.3
907.46	579.25	13858	13858
907.51	579.2	14046.7	14046.7
907.56	579.15	14024.7	14024.7
907.61	579.1	14097.3	14097.3
907.66	579.05	14097.3	14097.3
907.71	579	14078.7	14078.7
907.76	578.95	13910.7	13910.7
907.81	578.9	14043.3	14043.3
907.86	578.85	14150.7	14150.7
907.91	578.8	14042	14042
907.96	578.75	14038	14038
908.01	578.7	14009.3	14009.3
908.06	578.65	14212	14212
908.11	578.6	14080	14080
908.16	578.55	14154	14154
908.21	578.5	14083.3	14083.3
908.26	578.45	14108.7	14108.7
908.31	578.4	14165.3	14165.3
908.36	578.35	14228	14228
908.41	578.3	14189.3	14189.3
908.46	578.25	14158	14158
908.51	578.2	14193.3	14193.3
908.56	578.15	14256.7	14256.7
908.61	578.1	14326	14326
908.66	578.05	14209.3	14209.3
908.71	578	14178.7	14178.7
908.76	577.95	14130	14130
908.81	577.9	14236.7	14236.7
908.86	577.85	14430.7	14430.7
908.91	577.8	14558.7	14558.7
908.96	577.75	14418	14418
909.01	577.7	14488	14488
909.06	577.65	14388.7	14388.7
909.11	577.6	14514.7	14514.7
909.16	577.55	14559.3	14559.3
909.21	577.5	14598	14598
909.26	577.45	14506	14506
909.31	577.4	14533.3	14533.3
909.36	577.35	14562.7	14562.7
909.41	577.3	14747.3	14747.3
909.46	577.25	14752	14752
909.51	577.2	14671.3	14671.3
909.56	577.15	14817.3	14817.3
909.61	577.1	14734.7	14734.7
909.66	577.05	14777.3	14777.3
909.71	577	14762	14762
909.76	576.95	14768	14768
909.81	576.9	14559.3	14559.3
909.86	576.85	14684	14684
909.91	576.8	14838.7	14838.7
909.96	576.75	14876	14876
910.01	576.7	14844.7	14844.7
910.06	576.65	14890	14890
910.11	576.6	14916.7	14916.7
910.16	576.55	14713.3	14713.3
910.21	576.5	14867.3	14867.3
910.26	576.45	14824	14824
910.31	576.4	14914	14914
910.36	576.35	14965.3	14965.3
910.41	576.3	15124.7	15124.7
910.46	576.25	15138.7	15138.7
910.51	576.2	15222	15222
910.56	576.15	15376	15376
910.61	576.1	15329.3	15329.3
910.66	576.05	15325.3	15325.3
910.71	576	15358	15358
910.76	575.95	15412	15412
910.81	575.9	15442	15442
910.86	575.85	15574.7	15574.7
910.91	575.8	15506.7	15506.7
910.96	575.75	15595.3	15595.3
911.01	575.7	15543.3	15543.3
911.06	575.65	15583.3	15583.3
911.11	575.6	15649.3	15649.3
911.16	575.55	15490	15490
911.21	575.5	15623.3	15623.3
911.26	575.45	15574.7	15574.7
911.31	575.4	15518.7	15518.7
911.36	575.35	15508.7	15508.7
911.41	575.3	1552

Note: README.md
# Dasgroupta
Folder for Dasgupta Research Group related notebooks.

File: C0017_Cu_LMM.TXT
C:\Users\Orlando\Documents\Postdoctoral_Work\Data\GGB_XPS_Nov2018\20181119_CuOxide_corevamas.vms
Cu Auger/4
	Characteristic Energy eV	1486.71	Acquisition Time s	3	Step Size eV	0.05	No Steps	600
KE_Cu Auger/4	BE_Cu Auger/4	Background_Cu Auger/4
901.71	585	2129.33
901.81	584.9	2128.67
901.91	584.8	2120.67
902.01	584.7	2139
902.11	584.6	2137.67
902.21	584.5	2142
902.31	584.4	2164.67
902.41	584.3	2132.67
902.51	584.2	2122.67
902.61	584.1	2138
902.71	584	2168.33
902.81	583.9	2095
902.91	583.8	2108.67
903.01	583.7	2132
903.11	583.6	2141
903.21	583.5	2114
903.31	583.4	2156.33
903.41	583.3	2155.67
903.51	583.2	2128
903.61	583.1	2159
903.71	583	2137.67
903.81	582.9	2125.67
903.91	582.8	2122.67
904.01	582.7	2170
904.11	582.6	2191
904.21	582.5	2152.33
904.31	582.4	2132.33
904.41	582.3	2147
904.51	582.2	2126
904.61	582.1	2150.33
904.71	582	2138.33
904.81	581.9	2166.67
904.91	581.8	2186
905.01	581.7	2167.67
905.11	581.6	2150.33
905.21	581.5	2148
905.31	581.4	2173
905.41	581.3	2155.33
905.51	581.2	2206.67
905.61	581.1	2198
905.71	581	2212.67
905.81	580.9	2189.67
905.91	580.8	2211
906.01	580.7	2218.33
906.11	580.6	2184.33
906.21	580.5	2210
906.31	580.4	2237.67
906.41	580.3	2204.67
906.51	580.2	2242.67
906.61	580.1	2254.67
906.71	580	2286.33
906.81	579.9	2178.67
906.91	579.8	2256.33
907.01	579.7	2242.67
907.11	579.6	2232.67
907.21	579.5	2255
907.31	579.4	2211.33
907.41	579.3	2269
907.51	579.2	2238
907.61	579.1	2245.33
907.71	579	2273
907.81	578.9	2235
907.91	578.8	2300.33
908.01	578.7	2318.33
908.11	578.6	2287.33
908.21	578.5	2266
908.31	578.4	2294
908.41	578.3	2254.33
908.51	578.2	2333.67
908.61	578.1	2309
908.71	578	2283.67
908.81	577.9	2296.67
908.91	577.8	2332.67
909.01	577.7	2287
909.11	577.6	2288.33
909.21	577.5	2325
909.31	577.4	2307.33
909.41	577.3	2350.33
909.51	577.2	2306.67
909.61	577.1	2321
909.71	577	2355.33
909.81	576.9	2373.67
909.91	576.8	2391.67
910.01	576.7	2365.33
910.11	576.6	2395.67
910.21	576.5	2385.33
910.31	576.4	2428.33
910.41	576.3	2475.67
910.51	576.2	2448.67
910.61	576.1	2443
910.71	576	2483
910.81	575.9	2480.33
910.91	575.8	2490.67
911.01	575.7	2511.33
911.11	575.6	2545
911.21	575.5	2571
911.31	575.4	2617
911.41	575.3	2566.67
911.51	575.2	2521.67
911.61	575.1	2579.33
911.71	575	2538.67
911.81	574.9	2581
911.91	574.8	2623
912.01	574.7	2645.33
912.11	574.6	2651.33
912.21	574.5	2702.33
912.31	574.4	2652
912.41	574.3	2683
912.51	574.2	2704
912.61	574.1	2694
912.71	574	2660
912.81	573.9	2751.67
912.91	573.8	2703
913.01	573.7	2734.67
913.11	573.6	2723.67
913.21	573.5	2733
913.31	573.4	2716.33
913.41	573.3	2713.67
913.51	573.2	2718
913.61	573.1	2748
913.71	573	2702
913.81	572.9	2722
913.91	572.8	2770.33
914.01	572.7	2722
914.11	572.6	2736.33
914.21	572.5	2746.33
914.31	572.4	2808.33
914.41	572.3	2824.67
914.51	572.2	2824.33
914.61	572.1	2856.67
914.71	572	2849.33
914.81	571.9	2841
914.91	571.8	2880.33
915.01	571.7	2932.33
915.11	571.6	3030.67
915.21	571.5	3060.33
915.31	571.4	3171.67
915.41	571.3	3243.67
915.51	571.2	3301.67
915.61	571.1	3447
915.71	571	3481.67
915.81	570.9	3567.67
915.91	570.8	3740.33
916.01	570.7	3858.67
916.11	570.6	3974
916.21	570.5	4128.67
916.31	570.4	4242
916.41	570.3	4375.67
916.51	570.2	4446.33
916.61	570.1	4548
916.71	570	4487.33
916.81	569.9	4443.33
916.91	569.8	4413
917.01	569.7	4304.33
917.11	569.6	4160.67
917.21	569.5	4026
917.31	569.4	3870
917.41	569.3	3732.33
917.51	569.2	3585.33
917.61	569.1	3448
917.71	569	3365
917.81	568.9	3231.33
917.91	568.8	3197.33
918.01	568.7	3083
918.11	568.6	3011.33
918.21	568.5	2896
918.31	568.4	2850.33
918.41	568.3	2745
918.51	568.2	2713
918.61	568.1	2708
918.71	568	2620
918.81	567.9	2575.67
918.91	567.8	2557
919.01	567.7	2445
919.11	567.6	2459.33
919.21	567.5	2440.33
919.31	567.4	2396
919.41	567.3	2363.67
919.51	567.2	2331.67
919.61	567.1	2263.33
919.71	567	2230
919.81	566.9	2161
919.91	566.8	2140.33
920.01	566.7	2064.33
920.11	566.6	2076.33
920.21	566.5	2034.67
920.31	566.4	2000.67
920.41	566.3	1959.33
920.51	566.2	1941
920.61	566.1	1936
920.71	566	1891.67
920.81	565.9	1882
920.91	565.8	1863.67
921.01	565.7	1862
921.11	565.6	1849.67
921.21	565.5	1805.33
921.31	565.4	1776
921.41	565.3	1779
921.51	565.2	1760.33
921.61	565.1	1751
921.71	565	1735.33
921.81	564.9	1733
921.91	564.8	1689
922.01	564.7	1713
922.11	564.6	1706
922.21	564.5	1675.33
922.31	564.4	1664
922.41	564.3	1606.33
922.51	564.2	1617.33
922.61	564.1	1616
922.71	564	1577.67
922.81	563.9	1519
922.91	563.8	1557
923.01	563.7	1514
923.11	563.6	1517.33
923.21	563.5	1481.33
923.31	563.4	1469.67
923.41	563.3	1442
923.51	563.2	1409
923.61	563.1	1412.33
923.71	563	1440.33
923.81	562.9	1402.33
923.91	562.8	1390
924.01	562.7	1426.33
924.11	562.6	1414
924.21	562.5	1380.33
924.31	562.4	1350.33
924.41	562.3	1362
924.51	562.2	1353
924.61	562.1	1358
924.71	562	1358.67
924.81	561.9	1312.33
924.91	561.8	1322
925.01	561.7	1329
925.11	561.6	1344.33
925.21	561.5	1334
925.31	561.4	1371.33
925.41	561.3	1345.33
925.51	561.2	1345
925.61	561.1	1328.67
925.71	561	1351.33
925.81	560.9	1332.33
925.91	560.8	1318.67
926.01	560.7	1318.33
926.11	560.6	1303.33
926.21	560.5	1324.67
926.31	560.4	1319.33
926.41	560.3	1291.67
926.51	560.2	1335.33
926.61	560.1	1312.67
926.71	560	1277.33
926.81	559.9	1248.33
926.91	559.8	1287
927.01	559.7	1262.67
927.11	559.6	1242
927.21	559.5	1264
927.31	559.4	1259.33
927.41	559.3	1252.67
927.51	559.2	1237
927.61	559.1	1258.33
927.71	559	1257.67
927.81	558.9	1255
927.91	558.8	1213.33
928.01	558.7	1200.67
928.11	558.6	1233.67
928.21	558.5	1236.33
928.31	558.4	1212
928.41	558.3	1212.33
928.51	558.2	1195.33
928.61	558.1	1218.33
928.71	558	1191.33
928.81	557.9	1195
928.91	557.8	1210
929.01	557.7	1194
929.11	557.6	1178.67
929.21	557.5	1209.67
929.31	557.4	1193.33
929.41	557.3	1204.67
929.51	557.2	1181
929.61	557.1	1193
929.71	557	1194.67
929.81	556.9	1230
929.91	556.8	1207
930.01	556.7	1201.33
930.11	556.6	1194.67
930.21	556.5	1198
930.31	556.4	1226.33
930.41	556.3	1202
930.51	556.2	1224
930.61	556.1	1196.67
930.71	556	1222
930.81	555.9	1234.33
930.91	555.8	1210.67
931.01	555.7	1216
931.11	555.6	1256
931.21	555.5	1220.33
931.31	555.4	1229.33
931.41	555.3	1269
931.51	555.2	1241.67
931.61	555.1	1245
931.66	555.05	1247